<Bundle xmlns="http://hl7.org/fhir">
   <id value="bundle-document-med-admin-patient-med-admin-1"/>
   <identifier>
      <system value="urn:ietf:rfc:3986"/>
      <value value="urn:uuid:21759053-6C48-11EB-2236-09173F13E4C5"/>
   </identifier>
   <type value="document" />
   <timestamp value="2021-02-11T19:04:21.973+10:00"/>
   <entry>
      <fullUrl value="http://example.org/fhir/Composition/composition-med-admin-1" />
      <resource>
         <Composition>
            <id value="composition-med-admin-1" />
            <meta>
               <profile value="http://hl7.org/fhir/us/nhsn-med-admin/StructureDefinition/Composition-inpatient-med-admin" />
            </meta>
            <status value="final" />
            <type>
               <coding>
                  <system value="http://loinc.org" />
                  <code value="87231-7" />
                  <display value="Medication administration.extended Document" />
               </coding>
            </type>
            <subject>
               <reference value="Patient/patient-med-admin-1" />
               <display value="Name: 'masked'" />
            </subject>
            <encounter>
               <reference value="Encounter/encounter-completed-inpatient-med-admin-1" />
            </encounter>
            <date value="2021-01-12T22:13:23Z" />
            <author>
               <reference value="Practitioner/practitioner-med-admin-henry-seven" />
               <display value="Henry Seven, MD" />
            </author>
            <title value="Inpatient Medication Administration" />
            <section>
               <title value="Medication Section" />
               <code>
                  <coding>
                     <system value="http://loinc.org" />
                     <code value="10160-0" />
                     <display value="History of Medication use Narrative" />
                  </coding>
               </code>
               <entry>
                  <reference value="MedicationAdministration/medicationadministration-azithromycin-med-admin-1" />
                  <display value="Azithromycin 500 MG Oral Tablet" />
               </entry>
               <entry>
                  <reference value="MedicationAdministration/medicationadministration-remdesivir-med-admin-1" />
                  <display value="remdesivir 100 MG Injection [Veklury]" />
               </entry>
            </section>
            <section>
               <title value="Problems Section" />
               <code>
                  <coding>
                     <system value="http://loinc.org" />
                     <code value="11450-4" />
                     <display value="Problem list - Reported" />
                  </coding>
               </code>
               <entry>
                  <reference value="Condition/condition-hypertension-med-admin-1" />
                  <display value="Hypertensive disorder, systemic arterial (disorder)" />
               </entry>
            </section>
            <section>
               <title value="Results Section" />
               <code>
                  <coding>
                     <system value="http://loinc.org" />
                     <code value="30954-2" />
                     <display value="Relevant Dx tests/lab data" />
                  </coding>
               </code>
               <entry>
                  <reference value="Observation/observation-lab-sars-cov-med-admin" />
                  <display value="SARS-CoV-2 (COVID-19) IgM Ab [Presence] in Serum or Plasma by Immunoassay" />
               </entry>
            </section>
         </Composition>
      </resource>
   </entry>
   <entry>
      <fullUrl value="http://example.org/fhir/MedicationAdministration/medicationadministration-azithromycin-med-admin-1" />
      <resource>
         <MedicationAdministration>
            <id value="medicationadministration-azithromycin-med-admin-1" />
            <meta>
               <versionId value="2" />
               <lastUpdated value="2021-02-10T03:08:19.617+00:00" />
               <source value="#I8dS1RseMvmmvJJC" />
            </meta>
            <status value="completed" />
            <medicationCodeableConcept>
               <coding>
                  <system value="http://www.nlm.nih.gov/research/umls/rxnorm" />
                  <code value="248656" />
                  <display value="Azithromycin 500 MG Oral Tablet" />
               </coding>
               <text value="Azithromycin 500 MG Oral Tablet" />
            </medicationCodeableConcept>
            <subject>
               <reference value="Patient/patient-med-admin-1" />
            </subject>
            <effectivePeriod>
               <start value="2021-01-02" />
               <end value="2021-01-10" />
            </effectivePeriod>
            <dosage>
               <text value="Two tablets at once" />
               <route>
                  <coding>
                     <system value="http://snomed.info/sct" />
                     <code value="26643006" />
                     <display value="Oral Route" />
                  </coding>
               </route>
               <method>
                  <coding>
                     <system value="http://snomed.info/sct" />
                     <code value="421521009" />
                     <display value="Swallow - dosing instruction imperative (qualifier value)" />
                  </coding>
               </method>
               <dose>
                  <value value="2" />
                  <unit value="TAB" />
                  <system value="http://terminology.hl7.org/CodeSystem/v3-orderableDrugForm" />
                  <code value="TAB" />
               </dose>
            </dosage>
         </MedicationAdministration>
      </resource>
   </entry>
   <entry>
      <fullUrl value="http://example.org/fhir/Encounter/encounter-completed-inpatient-med-admin-1" />
      <resource>
         <Encounter>
            <id value="encounter-completed-inpatient-med-admin-1" />
            <meta>
               <versionId value="2" />
               <lastUpdated value="2021-02-10T03:08:19.621+00:00" />
               <source value="#qmyg9wZJY8AqPIqz" />
               <profile value="http://hl7.org/fhir/us/core/StructureDefinition/us-core-encounter" />
            </meta>
            <status value="finished" />
            <class>
               <system value="http://terminology.hl7.org/CodeSystem/v3-ActCode" />
               <code value="IMP" />
               <display value="inpatient encounter" />
            </class>
            <type>
               <coding>
                  <system value="http://snomed.info/sct" />
                  <code value="24882007" />
               </coding>
               <text value="Medical consultation on hospital inpatient" />
            </type>
            <subject>
               <reference value="Patient/patient-med-admin-1" />
               <display value="Name: 'masked'" />
            </subject>
            <period>
               <start value="2021-01-01" />
               <end value="2021-01-12" />
            </period>
            <diagnosis>
               <condition>
                  <reference value="Condition/condition-lab-confirmed-covid-med-admin-1" />
               </condition>
            </diagnosis>
            <hospitalization>
               <dischargeDisposition>
                  <coding>
                     <system value="http://terminology.hl7.org/CodeSystem/discharge-disposition" />
                     <code value="home" />
                  </coding>
                  <text value="Discharged to home" />
               </dischargeDisposition>
            </hospitalization>
            <location>
               <location>
                  <reference value="Location/location-salem-medical-center" />
                  <display value="Clinic Bldg A, Salem Medical Center, 4646 Brown Rd, Salem, MA 02368" />
               </location>
            </location>
            <serviceProvider>
               <reference value="Organization/organization-salem-medical-center" />
               <display value="Salem Medical Center, 22222 Health Authority Drive, Ann Arbor MI, 99999" />
            </serviceProvider>
         </Encounter>
      </resource>
   </entry>
   <entry>
      <fullUrl value="http://example.org/fhir/Patient/patient-med-admin-1" />
      <resource>
         <Patient>
            <id value="patient-med-admin-1" />
            <meta>
               <versionId value="1" />
               <lastUpdated value="2020-12-23T21:27:41.254+00:00" />
               <source value="#e5lm4KzXeLhJI81V" />
               <profile value="http://hl7.org/fhir/us/core/StructureDefinition/us-core-patient" />
            </meta>
            <text>
               <status value="generated" />
               <div xmlns="http://www.w3.org/1999/xhtml">
                  <div class="hapiHeaderText" />
                  <table class="hapiPropertyTable">
                     <tbody>
                        <tr>
                           <td>Identifier</td>
                           <td />
                        </tr>
                        <tr>
                           <td>Date of birth</td>
                           <td>
                              <span>24 November 1974</span>
                           </td>
                        </tr>
                     </tbody>
                  </table>
               </div>
            </text>
            <extension url="http://hl7.org/fhir/us/core/StructureDefinition/us-core-race">
               <extension url="ombCategory">
                  <valueCoding>
                     <system value="urn:oid:2.16.840.1.113883.6.238" />
                     <code value="2106-3" />
                     <display value="White" />
                  </valueCoding>
               </extension>
               <extension url="text">
                  <valueString value="White" />
               </extension>
            </extension>
            <extension url="http://hl7.org/fhir/us/core/StructureDefinition/us-core-ethnicity">
               <extension url="ombCategory">
                  <valueCoding>
                     <system value="urn:oid:2.16.840.1.113883.6.238" />
                     <code value="2186-5" />
                     <display value="Not Hispanic or Latino" />
                  </valueCoding>
               </extension>
               <extension url="text">
                  <valueString value="Not Hispanic or Latino" />
               </extension>
            </extension>
            <extension url="http://hl7.org/fhir/us/core/StructureDefinition/us-core-birthsex">
               <valueCode value="F" />
            </extension>
            <identifier>
               <system value="http://hospital.smarthealthit.org" />
               <value>
                  <extension url="http://hl7.org/fhir/StructureDefinition/data-absent-reason">
                     <valueCode value="masked" />
                  </extension>
               </value>
            </identifier>
            <active value="true" />
            <name>
               <extension url="http://hl7.org/fhir/StructureDefinition/data-absent-reason">
                  <valueCode value="masked" />
               </extension>
            </name>
            <gender value="female" />
            <birthDate value="1974-11-24" />
         </Patient>
      </resource>
   </entry>
   <entry>
      <fullUrl value="http://example.org/fhir/Practitioner/practitioner-med-admin-henry-seven" />
      <resource>
         <Practitioner>
            <id value="practitioner-med-admin-henry-seven" />
            <meta>
               <versionId value="1" />
               <lastUpdated value="2021-02-10T03:08:19.831+00:00" />
               <source value="#vNf3iatcV2Dv62N6" />
               <profile value="http://hl7.org/fhir/us/core/StructureDefinition/us-core-practitioner" />
            </meta>
            <identifier>
               <system value="http://hl7.org/fhir/sid/us-npi" />
               <value value="9933339108" />
            </identifier>
            <name>
               <family value="Henry" />
               <given value="Seven" />
               <suffix value="M.D." />
            </name>
            <telecom>
               <system value="email" />
               <value value="henry.seven@example.com" />
            </telecom>
            <address>
               <line value="BMass Doctors" />
               <line value="2100 North Ave" />
               <city value="Burlington" />
               <state value="MA" />
               <postalCode value="02368" />
               <country value="US" />
            </address>
         </Practitioner>
      </resource>
   </entry>
   <entry>
      <fullUrl value="http://example.org/fhir/Observation/observation-lab-sars-cov-med-admin" />
      <resource>
         <Observation>
            <id value="observation-lab-sars-cov-med-admin" />
            <meta>
               <versionId value="4" />
               <lastUpdated value="2021-03-29T23:13:31.865+00:00" />
               <source value="#KrYSK5ISFyZ7HwLy" />
               <profile value="http://hl7.org/fhir/us/nhsn-med-admin/StructureDefinition/Observation-lab-sars-cov" />
            </meta>
            <status value="final" />
            <category>
               <coding>
                  <system value="http://terminology.hl7.org/CodeSystem/observation-category" />
                  <code value="laboratory" />
                  <display value="Laboratory" />
               </coding>
               <text value="Laboratory" />
            </category>
            <code>
               <coding>
                  <system value="http://loinc.org" />
                  <code value="94564-2" />
                  <display value="SARS-CoV-2 (COVID-19) IgM Ab [Presence] in Serum or Plasma by Immunoassay" />
               </coding>
               <text value="SARS-CoV-2 (COVID-19) IgM Ab [Presence] in Serum or Plasma by Immunoassay" />
            </code>
            <subject>
               <reference value="Patient/patient-med-admin-1" />
               <display value="Name: 'masked'" />
            </subject>
            <effectiveDateTime value="2021-01-04" />
            <valueCodeableConcept>
               <coding>
                  <system value="http://terminology.hl7.org/CodeSystem/v3-ObservationInterpretation" />
                  <code value="POS" />
                  <display value="positive" />
               </coding>
               <text value="positive" />
            </valueCodeableConcept>
         </Observation>
      </resource>
   </entry>
   <entry>
      <fullUrl value="http://example.org/fhir/Condition/condition-hypertension-med-admin-1" />
      <resource>
         <Condition>
            <id value="condition-hypertension-med-admin-1" />
            <meta>
               <versionId value="1" />
               <lastUpdated value="2021-02-10T03:08:19.624+00:00" />
               <source value="#fcDFDLc0nh6DzGxE" />
               <profile value="http://hl7.org/fhir/us/core/StructureDefinition/us-core-condition" />
            </meta>
            <clinicalStatus>
               <coding>
                  <system value="http://terminology.hl7.org/CodeSystem/condition-clinical" />
                  <code value="active" />
               </coding>
            </clinicalStatus>
            <verificationStatus>
               <coding>
                  <system value="http://terminology.hl7.org/CodeSystem/condition-ver-status" />
                  <code value="confirmed" />
               </coding>
            </verificationStatus>
            <category>
               <coding>
                  <system value="http://terminology.hl7.org/CodeSystem/condition-category" />
                  <code value="problem-list-item" />
                  <display value="Problem List Item" />
               </coding>
            </category>
            <code>
               <coding>
                  <system value="http://snomed.info/sct" />
                  <code value="38341003" />
                  <display value="Hypertensive disorder, systemic arterial (disorder)" />
               </coding>
            </code>
            <subject>
               <reference value="Patient/patient-med-admin-1" />
               <display value="Name: 'masked'" />
            </subject>
            <onsetDateTime value="2019-01-02T10:30:35-06:00" />
            <recordedDate value="2019-01-02T10:30:35-06:00" />
         </Condition>
      </resource>
   </entry>
   <entry>
      <fullUrl value="http://example.org/fhir/MedicationAdministration/medicationadministration-remdesivir-med-admin-1" />
      <resource>
         <MedicationAdministration>
            <id value="medicationadministration-remdesivir-med-admin-1" />
            <meta>
               <versionId value="3" />
               <lastUpdated value="2021-03-29T23:13:31.855+00:00" />
               <source value="#HHgXpYtZnHnbIpzQ" />
            </meta>
            <status value="completed" />
            <medicationCodeableConcept>
               <coding>
                  <system value="http://www.nlm.nih.gov/research/umls/rxnorm" />
                  <code value="2284960" />
                  <display value="remdesivir 100 MG Injection (EUA)" />
               </coding>
               <text value="remdesivir 100 MG Injection (EUA)" />
            </medicationCodeableConcept>
            <subject>
               <reference value="Patient/patient-med-admin-1" />
            </subject>
            <effectivePeriod>
               <start value="2021-01-02" />
               <end value="2021-01-10" />
            </effectivePeriod>
            <dosage>
               <route>
                  <coding>
                     <system value="http://snomed.info/sct" />
                     <code value="47625008" />
                     <display value="Intravenous use" />
                  </coding>
               </route>
               <dose>
                  <value value="100" />
                  <unit value="mg" />
               </dose>
            </dosage>
         </MedicationAdministration>
      </resource>
   </entry>
   <entry>
      <fullUrl value="http://example.org/fhir/Location/location-salem-medical-center" />
      <resource>
         <Location>
            <id value="location-salem-medical-center" />
            <meta>
               <versionId value="3" />
               <lastUpdated value="2020-12-23T22:50:03.721+00:00" />
               <source value="#oU4GwVxgBOSn7Uov" />
               <profile value="http://hl7.org/fhir/us/core/StructureDefinition/us-core-location" />
            </meta>
            <status value="active" />
            <name value="Clinic Bldg A, Salem Medical Center" />
            <type>
               <coding>
                  <system value="http://terminology.hl7.org/CodeSystem/v3-RoleCode" />
                  <code value="HOSP" />
                  <display value="Hospital" />
               </coding>
            </type>
            <telecom>
               <system value="phone" />
               <value value="(+1) (555)555-3001" />
            </telecom>
            <telecom>
               <system value="fax" />
               <value value="(+1) (555)555-3002" />
            </telecom>
            <telecom>
               <system value="email" />
               <value value="mail@smc.org" />
            </telecom>
            <address>
               <line value="Clinic Bldg A" />
               <line value="4444 Healthcare Drive" />
               <city value="Ann Arbor" />
               <state value="MI" />
               <postalCode value="99999" />
            </address>
            <managingOrganization>
               <reference value="Organization/organization-salem-medical-center" />
            </managingOrganization>
         </Location>
      </resource>
   </entry>
   <entry>
      <fullUrl value="http://example.org/fhir/Organization/organization-salem-medical-center" />
      <resource>
         <Organization>
            <id value="organization-salem-medical-center" />
            <meta>
               <versionId value="2" />
               <lastUpdated value="2020-12-23T22:50:03.696+00:00" />
               <source value="#hArO9sYGMNs4bOnd" />
               <profile value="http://hl7.org/fhir/us/core/StructureDefinition/us-core-organization" />
            </meta>
            <identifier>
               <system value="http://hl7.org.fhir/sid/us-npi" />
               <value value="55555555" />
            </identifier>
            <active value="true" />
            <type>
               <coding>
                  <system value="http://terminology.hl7.org/CodeSystem/v3-RoleCode" />
                  <code value="HOSP" />
                  <display value="Hospital" />
               </coding>
            </type>
            <name value="Salem Medical Center" />
            <telecom>
               <system value="phone" />
               <value value="+1-555-555-1111" />
            </telecom>
            <telecom>
               <system value="email" />
               <value value="mail@salemmedicalcenter.com" />
            </telecom>
            <address>
               <line value="22222 Health Authority Drive" />
               <city value="Ann Arbor" />
               <state value="MI" />
               <postalCode value="99999" />
            </address>
         </Organization>
      </resource>
   </entry>
</Bundle>
